LabVIEW Measurement	
Writer_Version	2
Reader_Version	2
Separator	Tab
Decimal_Separator	.
Multi_Headings	Yes
X_Columns	No
Time_Pref	Absolute
Operator	tyler
Date	2021/03/21
Time	07:38:43.9168560300346736284
***End_of_Header***	
	
Channels	1	
Samples	680	
Date	2021/03/21	
Time	07:38:43.9168560300346736284	
Y_Unit_Label	Volts	
X_Dimension	Time	
X0	0.0000000000000000E+0	
Delta_X	0.001000	
***End_of_Header***		
X_Value	Voltage_0 (Filtered)	Comment
	-0.031414
	-0.181004
	-0.501637
	-0.929673
	-1.345967
	-1.662137
	-1.845816
	-1.911373
	-1.897728
	-1.847334
	-1.792860
	-1.752499
	-1.731590
	-1.727179
	-1.732772
	-1.741926
	-1.750223
	-1.755731
	-1.758446
	-1.759400
	-1.759907
	-1.761034
	-1.763316
	-1.766702
	-1.770658
	-1.774416
	-1.777228
	-1.778583
	-1.778397
	-1.776983
	-1.774867
	-1.772633
	-1.770776
	-1.769603
	-1.769255
	-1.769787
	-1.771221
	-1.773545
	-1.776678
	-1.780421
	-1.784404
	-1.788147
	-1.791176
	-1.793070
	-1.793548
	-1.792630
	-1.790663
	-1.788183
	-1.785754
	-1.783836
	-1.782721
	-1.782528
	-1.783283
	-1.784977
	-1.787545
	-1.790850
	-1.794654
	-1.798569
	-1.802109
	-1.804772
	-1.806117
	-1.805966
	-1.804505
	-1.802174
	-1.799528
	-1.797102
	-1.795292
	-1.794339
	-1.794366
	-1.795392
	-1.797372
	-1.800196
	-1.803670
	-1.807496
	-1.811209
	-1.814259
	-1.816205
	-1.816802
	-1.816048
	-1.814215
	-1.811774
	-1.809254
	-1.807095
	-1.805604
	-1.804956
	-1.805223
	-1.806420
	-1.808536
	-1.811496
	-1.815085
	-1.818908
	-1.822464
	-1.825238
	-1.826818
	-1.826988
	-1.825793
	-1.823562
	-1.820830
	-1.818199
	-1.816137
	-1.814898
	-1.814600
	-1.815281
	-1.816897
	-1.819324
	-1.822399
	-1.825917
	-1.829540
	-1.832795
	-1.835175
	-1.836272
	-1.835921
	-1.834295
	-1.831829
	-1.829059
	-1.826526
	-1.824647
	-1.823641
	-1.823585
	-1.824473
	-1.826266
	-1.828880
	-1.832128
	-1.835700
	-1.839184
	-1.842107
	-1.844005
	-1.844555
	-1.843731
	-1.841821
	-1.839291
	-1.836645
	-1.834324
	-1.832660
	-1.831872
	-1.832055
	-1.833195
	-1.835234
	-1.838067
	-1.841450
	-1.844985
	-1.848248
	-1.850820
	-1.852276
	-1.852343
	-1.851087
	-1.848883
	-1.846249
	-1.843687
	-1.841598
	-1.840255
	-1.839804
	-1.840295
	-1.841715
	-1.844011
	-1.847064
	-1.850594
	-1.854166
	-1.857285
	-1.859466
	-1.860349
	-1.859823
	-1.858053
	-1.855438
	-1.852541
	-1.849926
	-1.847992
	-1.846954
	-1.846894
	-1.847809
	-1.849651
	-1.852320
	-1.855601
	-1.859139
	-1.862486
	-1.865199
	-1.866910
	-1.867366
	-1.866520
	-1.864577
	-1.861920
	-1.859063
	-1.856562
	-1.854811
	-1.853982
	-1.854119
	-1.855201
	-1.857167
	-1.859914
	-1.863211
	-1.866710
	-1.869996
	-1.872606
	-1.874101
	-1.874206
	-1.872933
	-1.870636
	-1.867857
	-1.865133
	-1.862910
	-1.861473
	-1.860949
	-1.861405
	-1.862824
	-1.865079
	-1.868011
	-1.871399
	-1.874865
	-1.877915
	-1.880071
	-1.880974
	-1.880471
	-1.878703
	-1.876096
	-1.873204
	-1.870564
	-1.868609
	-1.867574
	-1.867497
	-1.868332
	-1.870017
	-1.872454
	-1.875501
	-1.878934
	-1.882352
	-1.885218
	-1.887020
	-1.887446
	-1.886476
	-1.884353
	-1.881544
	-1.878631
	-1.876100
	-1.874279
	-1.873366
	-1.873427
	-1.874457
	-1.876416
	-1.879201
	-1.882591
	-1.886210
	-1.889568
	-1.892170
	-1.893606
	-1.893606
	-1.892146
	-1.889568
	-1.886474
	-1.883477
	-1.881039
	-1.879432
	-1.878809
	-1.879254
	-1.880729
	-1.883080
	-1.886141
	-1.889678
	-1.893271
	-1.896400
	-1.898569
	-1.899382
	-1.898700
	-1.896760
	-1.894068
	-1.891150
	-1.888447
	-1.886345
	-1.885144
	-1.884984
	-1.885886
	-1.887755
	-1.890371
	-1.893504
	-1.896894
	-1.900129
	-1.902761
	-1.904421
	-1.904827
	-1.903909
	-1.901890
	-1.899180
	-1.896261
	-1.893631
	-1.891702
	-1.890706
	-1.890729
	-1.891764
	-1.893744
	-1.896537
	-1.899899
	-1.903442
	-1.906673
	-1.909073
	-1.910225
	-1.909969
	-1.908438
	-1.906008
	-1.903210
	-1.900545
	-1.898388
	-1.897002
	-1.896479
	-1.896811
	-1.898018
	-1.900084
	-1.902880
	-1.906166
	-1.909541
	-1.912497
	-1.914554
	-1.915347
	-1.914745
	-1.912966
	-1.910443
	-1.907643
	-1.905017
	-1.902927
	-1.901607
	-1.901203
	-1.901797
	-1.903373
	-1.905809
	-1.908932
	-1.912449
	-1.915884
	-1.918685
	-1.920363
	-1.920611
	-1.919439
	-1.917183
	-1.914355
	-1.911484
	-1.909007
	-1.907233
	-1.906361
	-1.906484
	-1.907576
	-1.909498
	-1.912099
	-1.915224
	-1.918603
	-1.921801
	-1.924307
	-1.925651
	-1.925532
	-1.923994
	-1.921440
	-1.918442
	-1.915553
	-1.913202
	-1.911655
	-1.911040
	-1.911411
	-1.912775
	-1.915062
	-1.918097
	-1.921592
	-1.925112
	-1.928120
	-1.930120
	-1.930778
	-1.930005
	-1.928032
	-1.925314
	-1.922354
	-1.919628
	-1.917533
	-1.916308
	-1.916036
	-1.916738
	-1.918380
	-1.920859
	-1.924003
	-1.927508
	-1.930919
	-1.933688
	-1.935310
	-1.935514
	-1.934323
	-1.932010
	-1.929062
	-1.926061
	-1.923480
	-1.921615
	-1.920657
	-1.920725
	-1.921815
	-1.923793
	-1.926500
	-1.929767
	-1.933265
	-1.936477
	-1.938857
	-1.940003
	-1.939731
	-1.938138
	-1.935591
	-1.932610
	-1.929745
	-1.927453
	-1.926017
	-1.925545
	-1.926029
	-1.927384
	-1.929477
	-1.932184
	-1.935357
	-1.938700
	-1.941731
	-1.943904
	-1.944779
	-1.944158
	-1.942193
	-1.939357
	-1.936269
	-1.933478
	-1.931345
	-1.930077
	-1.929781
	-1.930473
	-1.932109
	-1.934602
	-1.937753
	-1.941221
	-1.944543
	-1.947212
	-1.948784
	-1.948963
	-1.947707
	-1.945306
	-1.942281
	-1.939198
	-1.936577
	-1.934799
	-1.934031
	-1.934260
	-1.935408
	-1.937394
	-1.940091
	-1.943268
	-1.946588
	-1.949643
	-1.951999
	-1.953253
	-1.953135
	-1.951655
	-1.949136
	-1.946066
	-1.942978
	-1.940396
	-1.938734
	-1.938175
	-1.938694
	-1.940167
	-1.942445
	-1.945375
	-1.948733
	-1.952117
	-1.955011
	-1.956934
	-1.957553
	-1.956782
	-1.954821
	-1.952110
	-1.949214
	-1.946619
	-1.944622
	-1.943385
	-1.943012
	-1.943567
	-1.945023
	-1.947294
	-1.950259
	-1.953688
	-1.957147
	-1.960040
	-1.961781
	-1.962012
	-1.960756
	-1.958385
	-1.955412
	-1.952358
	-1.949698
	-1.947791
	-1.946837
	-1.946894
	-1.947923
	-1.949850
	-1.952572
	-1.955861
	-1.959283
	-1.962327
	-1.964557
	-1.965614
	-1.965281
	-1.963640
	-1.961078
	-1.958140
	-1.955344
	-1.953071
	-1.951563
	-1.950943
	-1.951270
	-1.952561
	-1.954752
	-1.957688
	-1.961123
	-1.964642
	-1.967655
	-1.969590
	-1.970079
	-1.969064
	-1.966852
	-1.963996
	-1.961053
	-1.958456
	-1.956487
	-1.955330
	-1.955089
	-1.955770
	-1.957316
	-1.959671
	-1.962717
	-1.966127
	-1.969395
	-1.971983
	-1.973438
	-1.973485
	-1.972159
	-1.969826
	-1.967011
	-1.964200
	-1.961756
	-1.959950
	-1.958999
	-1.959035
	-1.960083
	-1.962074
	-1.964857
	-1.968177
	-1.971635
	-1.974728
	-1.976958
	-1.977930
	-1.977475
	-1.975735
	-1.973128
	-1.970169
	-1.967319
	-1.964954
	-1.963364
	-1.962724
	-1.963081
	-1.964396
	-1.966600
	-1.969562
	-1.972982
	-1.976377
	-1.979223
	-1.981093
	-1.981676
	-1.980852
	-1.978781
	-1.975897
	-1.972780
	-1.970006
	-1.967985
	-1.966896
	-1.966753
	-1.967515
	-1.969132
	-1.971491
	-1.974421
	-1.977679
	-1.980859
	-1.983422
	-1.984888
	-1.984972
	-1.983662
	-1.981274
	-1.978367
	-1.975533
	-1.973213
	-1.971610
	-1.970780
	-1.970776
	-1.971643
	-1.973368
	-1.975885
	-1.979007
	-1.982339
	-1.985361
	-1.987580
	-1.988632
	-1.988321
	-1.986708
	-1.984147
	-1.981152
	-1.978245
	-1.975863
	-1.974307
	-1.973725
	-1.974156
	-1.975544
	-1.977757
	-1.980633
	-1.983924
	-1.987242
	-1.990101
	-1.992012
	-1.992613
	-1.991782
	-1.989683
	-1.986780
	-1.983703
	-1.980984
	-1.978930
	-1.977742
	-1.977548
	-1.978337
	-1.979990
	-1.982374
	-1.985330
	-1.988579
	-1.991702
	-1.994222
	-1.995715
	-1.995863
	-1.994568
	-1.992104
	-1.989061
	-1.986073
	-1.983584
	-1.981841
	-1.980991
	-1.981114
	-1.982175
	-1.984076
	-1.986701
	-1.989860
	-1.993208
	-1.996277
	-1.998569
	-1.999641
	-1.999229
	-1.997394
	-1.994565
	-1.991365
	-1.988391
	-1.986115
	-1.984790
	-1.984417
	-1.984897
	-1.986162
	-1.988203
	-1.991028
	-1.994469
	-1.998035
	-2.001069
	-2.002974
	-2.003377
	-2.002251
	-1.999919
	-1.996929
	-1.993881
	-1.991258
	-1.989349
	-1.988298
	-1.988149
	-1.988894
	-1.990497
	-1.992862
	-1.995832
	-1.999145
	-2.002357
	-2.004898
	-2.006264
	-2.006198
	-2.004780
	-2.002350

